#unit extraterrestrial fluxes to obtain atmospheric transmission
200.00  1.00000
200.05  1.00000
200.10  1.00000
200.15  1.00000
200.20  1.00000
200.25  1.00000
200.30  1.00000
200.35  1.00000
200.40  1.00000
200.45  1.00000
200.50  1.00000
200.55  1.00000
200.60  1.00000
200.65  1.00000
200.70  1.00000
200.75  1.00000
200.80  1.00000
200.85  1.00000
200.90  1.00000
200.95  1.00000
201.00  1.00000
201.05  1.00000
201.10  1.00000
201.15  1.00000
201.20  1.00000
201.25  1.00000
201.30  1.00000
201.35  1.00000
201.40  1.00000
201.45  1.00000
201.50  1.00000
201.55  1.00000
201.60  1.00000
201.65  1.00000
201.70  1.00000
201.75  1.00000
201.80  1.00000
201.85  1.00000
201.90  1.00000
201.95  1.00000
202.00  1.00000
202.05  1.00000
202.10  1.00000
202.15  1.00000
202.20  1.00000
202.25  1.00000
202.30  1.00000
202.35  1.00000
202.40  1.00000
202.45  1.00000
202.50  1.00000
202.55  1.00000
202.60  1.00000
202.65  1.00000
202.70  1.00000
202.75  1.00000
202.80  1.00000
202.85  1.00000
202.90  1.00000
202.95  1.00000
203.00  1.00000
203.05  1.00000
203.10  1.00000
203.15  1.00000
203.20  1.00000
203.25  1.00000
203.30  1.00000
203.35  1.00000
203.40  1.00000
203.45  1.00000
203.50  1.00000
203.55  1.00000
203.60  1.00000
203.65  1.00000
203.70  1.00000
203.75  1.00000
203.80  1.00000
203.85  1.00000
203.90  1.00000
203.95  1.00000
204.00  1.00000
204.05  1.00000
204.10  1.00000
204.15  1.00000
204.20  1.00000
204.25  1.00000
204.30  1.00000
204.35  1.00000
204.40  1.00000
204.45  1.00000
204.50  1.00000
204.55  1.00000
204.60  1.00000
204.65  1.00000
204.70  1.00000
204.75  1.00000
204.80  1.00000
204.85  1.00000
204.90  1.00000
204.95  1.00000
205.00  1.00000
205.05  1.00000
205.10  1.00000
205.15  1.00000
205.20  1.00000
205.25  1.00000
205.30  1.00000
205.35  1.00000
205.40  1.00000
205.45  1.00000
205.50  1.00000
205.55  1.00000
205.60  1.00000
205.65  1.00000
205.70  1.00000
205.75  1.00000
205.80  1.00000
205.85  1.00000
205.90  1.00000
205.95  1.00000
206.00  1.00000
206.05  1.00000
206.10  1.00000
206.15  1.00000
206.20  1.00000
206.25  1.00000
206.30  1.00000
206.35  1.00000
206.40  1.00000
206.45  1.00000
206.50  1.00000
206.55  1.00000
206.60  1.00000
206.65  1.00000
206.70  1.00000
206.75  1.00000
206.80  1.00000
206.85  1.00000
206.90  1.00000
206.95  1.00000
207.00  1.00000
207.05  1.00000
207.10  1.00000
207.15  1.00000
207.20  1.00000
207.25  1.00000
207.30  1.00000
207.35  1.00000
207.40  1.00000
207.45  1.00000
207.50  1.00000
207.55  1.00000
207.60  1.00000
207.65  1.00000
207.70  1.00000
207.75  1.00000
207.80  1.00000
207.85  1.00000
207.90  1.00000
207.95  1.00000
208.00  1.00000
208.05  1.00000
208.10  1.00000
208.15  1.00000
208.20  1.00000
208.25  1.00000
208.30  1.00000
208.35  1.00000
208.40  1.00000
208.45  1.00000
208.50  1.00000
208.55  1.00000
208.60  1.00000
208.65  1.00000
208.70  1.00000
208.75  1.00000
208.80  1.00000
208.85  1.00000
208.90  1.00000
208.95  1.00000
209.00  1.00000
209.05  1.00000
209.10  1.00000
209.15  1.00000
209.20  1.00000
209.25  1.00000
209.30  1.00000
209.35  1.00000
209.40  1.00000
209.45  1.00000
209.50  1.00000
209.55  1.00000
209.60  1.00000
209.65  1.00000
209.70  1.00000
209.75  1.00000
209.80  1.00000
209.85  1.00000
209.90  1.00000
209.95  1.00000
210.00  1.00000
210.05  1.00000
210.10  1.00000
210.15  1.00000
210.20  1.00000
210.25  1.00000
210.30  1.00000
210.35  1.00000
210.40  1.00000
210.45  1.00000
210.50  1.00000
210.55  1.00000
210.60  1.00000
210.65  1.00000
210.70  1.00000
210.75  1.00000
210.80  1.00000
210.85  1.00000
210.90  1.00000
210.95  1.00000
211.00  1.00000
211.05  1.00000
211.10  1.00000
211.15  1.00000
211.20  1.00000
211.25  1.00000
211.30  1.00000
211.35  1.00000
211.40  1.00000
211.45  1.00000
211.50  1.00000
211.55  1.00000
211.60  1.00000
211.65  1.00000
211.70  1.00000
211.75  1.00000
211.80  1.00000
211.85  1.00000
211.90  1.00000
211.95  1.00000
212.00  1.00000
212.05  1.00000
212.10  1.00000
212.15  1.00000
212.20  1.00000
212.25  1.00000
212.30  1.00000
212.35  1.00000
212.40  1.00000
212.45  1.00000
212.50  1.00000
212.55  1.00000
212.60  1.00000
212.65  1.00000
212.70  1.00000
212.75  1.00000
212.80  1.00000
212.85  1.00000
212.90  1.00000
212.95  1.00000
213.00  1.00000
213.05  1.00000
213.10  1.00000
213.15  1.00000
213.20  1.00000
213.25  1.00000
213.30  1.00000
213.35  1.00000
213.40  1.00000
213.45  1.00000
213.50  1.00000
213.55  1.00000
213.60  1.00000
213.65  1.00000
213.70  1.00000
213.75  1.00000
213.80  1.00000
213.85  1.00000
213.90  1.00000
213.95  1.00000
214.00  1.00000
214.05  1.00000
214.10  1.00000
214.15  1.00000
214.20  1.00000
214.25  1.00000
214.30  1.00000
214.35  1.00000
214.40  1.00000
214.45  1.00000
214.50  1.00000
214.55  1.00000
214.60  1.00000
214.65  1.00000
214.70  1.00000
214.75  1.00000
214.80  1.00000
214.85  1.00000
214.90  1.00000
214.95  1.00000
215.00  1.00000
215.05  1.00000
215.10  1.00000
215.15  1.00000
215.20  1.00000
215.25  1.00000
215.30  1.00000
215.35  1.00000
215.40  1.00000
215.45  1.00000
215.50  1.00000
215.55  1.00000
215.60  1.00000
215.65  1.00000
215.70  1.00000
215.75  1.00000
215.80  1.00000
215.85  1.00000
215.90  1.00000
215.95  1.00000
216.00  1.00000
216.05  1.00000
216.10  1.00000
216.15  1.00000
216.20  1.00000
216.25  1.00000
216.30  1.00000
216.35  1.00000
216.40  1.00000
216.45  1.00000
216.50  1.00000
216.55  1.00000
216.60  1.00000
216.65  1.00000
216.70  1.00000
216.75  1.00000
216.80  1.00000
216.85  1.00000
216.90  1.00000
216.95  1.00000
217.00  1.00000
217.05  1.00000
217.10  1.00000
217.15  1.00000
217.20  1.00000
217.25  1.00000
217.30  1.00000
217.35  1.00000
217.40  1.00000
217.45  1.00000
217.50  1.00000
217.55  1.00000
217.60  1.00000
217.65  1.00000
217.70  1.00000
217.75  1.00000
217.80  1.00000
217.85  1.00000
217.90  1.00000
217.95  1.00000
218.00  1.00000
218.05  1.00000
218.10  1.00000
218.15  1.00000
218.20  1.00000
218.25  1.00000
218.30  1.00000
218.35  1.00000
218.40  1.00000
218.45  1.00000
218.50  1.00000
218.55  1.00000
218.60  1.00000
218.65  1.00000
218.70  1.00000
218.75  1.00000
218.80  1.00000
218.85  1.00000
218.90  1.00000
218.95  1.00000
219.00  1.00000
219.05  1.00000
219.10  1.00000
219.15  1.00000
219.20  1.00000
219.25  1.00000
219.30  1.00000
219.35  1.00000
219.40  1.00000
219.45  1.00000
219.50  1.00000
219.55  1.00000
219.60  1.00000
219.65  1.00000
219.70  1.00000
219.75  1.00000
219.80  1.00000
219.85  1.00000
219.90  1.00000
219.95  1.00000
220.00  1.00000
220.05  1.00000
220.10  1.00000
220.15  1.00000
220.20  1.00000
220.25  1.00000
220.30  1.00000
220.35  1.00000
220.40  1.00000
220.45  1.00000
220.50  1.00000
220.55  1.00000
220.60  1.00000
220.65  1.00000
220.70  1.00000
220.75  1.00000
220.80  1.00000
220.85  1.00000
220.90  1.00000
220.95  1.00000
221.00  1.00000
221.05  1.00000
221.10  1.00000
221.15  1.00000
221.20  1.00000
221.25  1.00000
221.30  1.00000
221.35  1.00000
221.40  1.00000
221.45  1.00000
221.50  1.00000
221.55  1.00000
221.60  1.00000
221.65  1.00000
221.70  1.00000
221.75  1.00000
221.80  1.00000
221.85  1.00000
221.90  1.00000
221.95  1.00000
222.00  1.00000
222.05  1.00000
222.10  1.00000
222.15  1.00000
222.20  1.00000
222.25  1.00000
222.30  1.00000
222.35  1.00000
222.40  1.00000
222.45  1.00000
222.50  1.00000
222.55  1.00000
222.60  1.00000
222.65  1.00000
222.70  1.00000
222.75  1.00000
222.80  1.00000
222.85  1.00000
222.90  1.00000
222.95  1.00000
223.00  1.00000
223.05  1.00000
223.10  1.00000
223.15  1.00000
223.20  1.00000
223.25  1.00000
223.30  1.00000
223.35  1.00000
223.40  1.00000
223.45  1.00000
223.50  1.00000
223.55  1.00000
223.60  1.00000
223.65  1.00000
223.70  1.00000
223.75  1.00000
223.80  1.00000
223.85  1.00000
223.90  1.00000
223.95  1.00000
224.00  1.00000
224.05  1.00000
224.10  1.00000
224.15  1.00000
224.20  1.00000
224.25  1.00000
224.30  1.00000
224.35  1.00000
224.40  1.00000
224.45  1.00000
224.50  1.00000
224.55  1.00000
224.60  1.00000
224.65  1.00000
224.70  1.00000
224.75  1.00000
224.80  1.00000
224.85  1.00000
224.90  1.00000
224.95  1.00000
225.00  1.00000
225.05  1.00000
225.10  1.00000
225.15  1.00000
225.20  1.00000
225.25  1.00000
225.30  1.00000
225.35  1.00000
225.40  1.00000
225.45  1.00000
225.50  1.00000
225.55  1.00000
225.60  1.00000
225.65  1.00000
225.70  1.00000
225.75  1.00000
225.80  1.00000
225.85  1.00000
225.90  1.00000
225.95  1.00000
226.00  1.00000
226.05  1.00000
226.10  1.00000
226.15  1.00000
226.20  1.00000
226.25  1.00000
226.30  1.00000
226.35  1.00000
226.40  1.00000
226.45  1.00000
226.50  1.00000
226.55  1.00000
226.60  1.00000
226.65  1.00000
226.70  1.00000
226.75  1.00000
226.80  1.00000
226.85  1.00000
226.90  1.00000
226.95  1.00000
227.00  1.00000
227.05  1.00000
227.10  1.00000
227.15  1.00000
227.20  1.00000
227.25  1.00000
227.30  1.00000
227.35  1.00000
227.40  1.00000
227.45  1.00000
227.50  1.00000
227.55  1.00000
227.60  1.00000
227.65  1.00000
227.70  1.00000
227.75  1.00000
227.80  1.00000
227.85  1.00000
227.90  1.00000
227.95  1.00000
228.00  1.00000
228.05  1.00000
228.10  1.00000
228.15  1.00000
228.20  1.00000
228.25  1.00000
228.30  1.00000
228.35  1.00000
228.40  1.00000
228.45  1.00000
228.50  1.00000
228.55  1.00000
228.60  1.00000
228.65  1.00000
228.70  1.00000
228.75  1.00000
228.80  1.00000
228.85  1.00000
228.90  1.00000
228.95  1.00000
229.00  1.00000
229.05  1.00000
229.10  1.00000
229.15  1.00000
229.20  1.00000
229.25  1.00000
229.30  1.00000
229.35  1.00000
229.40  1.00000
229.45  1.00000
229.50  1.00000
229.55  1.00000
229.60  1.00000
229.65  1.00000
229.70  1.00000
229.75  1.00000
229.80  1.00000
229.85  1.00000
229.90  1.00000
229.95  1.00000
230.00  1.00000
230.05  1.00000
230.10  1.00000
230.15  1.00000
230.20  1.00000
230.25  1.00000
230.30  1.00000
230.35  1.00000
230.40  1.00000
230.45  1.00000
230.50  1.00000
230.55  1.00000
230.60  1.00000
230.65  1.00000
230.70  1.00000
230.75  1.00000
230.80  1.00000
230.85  1.00000
230.90  1.00000
230.95  1.00000
231.00  1.00000
231.05  1.00000
231.10  1.00000
231.15  1.00000
231.20  1.00000
231.25  1.00000
231.30  1.00000
231.35  1.00000
231.40  1.00000
231.45  1.00000
231.50  1.00000
231.55  1.00000
231.60  1.00000
231.65  1.00000
231.70  1.00000
231.75  1.00000
231.80  1.00000
231.85  1.00000
231.90  1.00000
231.95  1.00000
232.00  1.00000
232.05  1.00000
232.10  1.00000
232.15  1.00000
232.20  1.00000
232.25  1.00000
232.30  1.00000
232.35  1.00000
232.40  1.00000
232.45  1.00000
232.50  1.00000
232.55  1.00000
232.60  1.00000
232.65  1.00000
232.70  1.00000
232.75  1.00000
232.80  1.00000
232.85  1.00000
232.90  1.00000
232.95  1.00000
233.00  1.00000
233.05  1.00000
233.10  1.00000
233.15  1.00000
233.20  1.00000
233.25  1.00000
233.30  1.00000
233.35  1.00000
233.40  1.00000
233.45  1.00000
233.50  1.00000
233.55  1.00000
233.60  1.00000
233.65  1.00000
233.70  1.00000
233.75  1.00000
233.80  1.00000
233.85  1.00000
233.90  1.00000
233.95  1.00000
234.00  1.00000
234.05  1.00000
234.10  1.00000
234.15  1.00000
234.20  1.00000
234.25  1.00000
234.30  1.00000
234.35  1.00000
234.40  1.00000
234.45  1.00000
234.50  1.00000
234.55  1.00000
234.60  1.00000
234.65  1.00000
234.70  1.00000
234.75  1.00000
234.80  1.00000
234.85  1.00000
234.90  1.00000
234.95  1.00000
235.00  1.00000
235.05  1.00000
235.10  1.00000
235.15  1.00000
235.20  1.00000
235.25  1.00000
235.30  1.00000
235.35  1.00000
235.40  1.00000
235.45  1.00000
235.50  1.00000
235.55  1.00000
235.60  1.00000
235.65  1.00000
235.70  1.00000
235.75  1.00000
235.80  1.00000
235.85  1.00000
235.90  1.00000
235.95  1.00000
236.00  1.00000
236.05  1.00000
236.10  1.00000
236.15  1.00000
236.20  1.00000
236.25  1.00000
236.30  1.00000
236.35  1.00000
236.40  1.00000
236.45  1.00000
236.50  1.00000
236.55  1.00000
236.60  1.00000
236.65  1.00000
236.70  1.00000
236.75  1.00000
236.80  1.00000
236.85  1.00000
236.90  1.00000
236.95  1.00000
237.00  1.00000
237.05  1.00000
237.10  1.00000
237.15  1.00000
237.20  1.00000
237.25  1.00000
237.30  1.00000
237.35  1.00000
237.40  1.00000
237.45  1.00000
237.50  1.00000
237.55  1.00000
237.60  1.00000
237.65  1.00000
237.70  1.00000
237.75  1.00000
237.80  1.00000
237.85  1.00000
237.90  1.00000
237.95  1.00000
238.00  1.00000
238.05  1.00000
238.10  1.00000
238.15  1.00000
238.20  1.00000
238.25  1.00000
238.30  1.00000
238.35  1.00000
238.40  1.00000
238.45  1.00000
238.50  1.00000
238.55  1.00000
238.60  1.00000
238.65  1.00000
238.70  1.00000
238.75  1.00000
238.80  1.00000
238.85  1.00000
238.90  1.00000
238.95  1.00000
239.00  1.00000
239.05  1.00000
239.10  1.00000
239.15  1.00000
239.20  1.00000
239.25  1.00000
239.30  1.00000
239.35  1.00000
239.40  1.00000
239.45  1.00000
239.50  1.00000
239.55  1.00000
239.60  1.00000
239.65  1.00000
239.70  1.00000
239.75  1.00000
239.80  1.00000
239.85  1.00000
239.90  1.00000
239.95  1.00000
240.00  1.00000
240.05  1.00000
240.10  1.00000
240.15  1.00000
240.20  1.00000
240.25  1.00000
240.30  1.00000
240.35  1.00000
240.40  1.00000
240.45  1.00000
240.50  1.00000
240.55  1.00000
240.60  1.00000
240.65  1.00000
240.70  1.00000
240.75  1.00000
240.80  1.00000
240.85  1.00000
240.90  1.00000
240.95  1.00000
241.00  1.00000
241.05  1.00000
241.10  1.00000
241.15  1.00000
241.20  1.00000
241.25  1.00000
241.30  1.00000
241.35  1.00000
241.40  1.00000
241.45  1.00000
241.50  1.00000
241.55  1.00000
241.60  1.00000
241.65  1.00000
241.70  1.00000
241.75  1.00000
241.80  1.00000
241.85  1.00000
241.90  1.00000
241.95  1.00000
242.00  1.00000
242.05  1.00000
242.10  1.00000
242.15  1.00000
242.20  1.00000
242.25  1.00000
242.30  1.00000
242.35  1.00000
242.40  1.00000
242.45  1.00000
242.50  1.00000
242.55  1.00000
242.60  1.00000
242.65  1.00000
242.70  1.00000
242.75  1.00000
242.80  1.00000
242.85  1.00000
242.90  1.00000
242.95  1.00000
243.00  1.00000
243.05  1.00000
243.10  1.00000
243.15  1.00000
243.20  1.00000
243.25  1.00000
243.30  1.00000
243.35  1.00000
243.40  1.00000
243.45  1.00000
243.50  1.00000
243.55  1.00000
243.60  1.00000
243.65  1.00000
243.70  1.00000
243.75  1.00000
243.80  1.00000
243.85  1.00000
243.90  1.00000
243.95  1.00000
244.00  1.00000
244.05  1.00000
244.10  1.00000
244.15  1.00000
244.20  1.00000
244.25  1.00000
244.30  1.00000
244.35  1.00000
244.40  1.00000
244.45  1.00000
244.50  1.00000
244.55  1.00000
244.60  1.00000
244.65  1.00000
244.70  1.00000
244.75  1.00000
244.80  1.00000
244.85  1.00000
244.90  1.00000
244.95  1.00000
245.00  1.00000
245.05  1.00000
245.10  1.00000
245.15  1.00000
245.20  1.00000
245.25  1.00000
245.30  1.00000
245.35  1.00000
245.40  1.00000
245.45  1.00000
245.50  1.00000
245.55  1.00000
245.60  1.00000
245.65  1.00000
245.70  1.00000
245.75  1.00000
245.80  1.00000
245.85  1.00000
245.90  1.00000
245.95  1.00000
246.00  1.00000
246.05  1.00000
246.10  1.00000
246.15  1.00000
246.20  1.00000
246.25  1.00000
246.30  1.00000
246.35  1.00000
246.40  1.00000
246.45  1.00000
246.50  1.00000
246.55  1.00000
246.60  1.00000
246.65  1.00000
246.70  1.00000
246.75  1.00000
246.80  1.00000
246.85  1.00000
246.90  1.00000
246.95  1.00000
247.00  1.00000
247.05  1.00000
247.10  1.00000
247.15  1.00000
247.20  1.00000
247.25  1.00000
247.30  1.00000
247.35  1.00000
247.40  1.00000
247.45  1.00000
247.50  1.00000
247.55  1.00000
247.60  1.00000
247.65  1.00000
247.70  1.00000
247.75  1.00000
247.80  1.00000
247.85  1.00000
247.90  1.00000
247.95  1.00000
248.00  1.00000
248.05  1.00000
248.10  1.00000
248.15  1.00000
248.20  1.00000
248.25  1.00000
248.30  1.00000
248.35  1.00000
248.40  1.00000
248.45  1.00000
248.50  1.00000
248.55  1.00000
248.60  1.00000
248.65  1.00000
248.70  1.00000
248.75  1.00000
248.80  1.00000
248.85  1.00000
248.90  1.00000
248.95  1.00000
249.00  1.00000
249.05  1.00000
249.10  1.00000
249.15  1.00000
249.20  1.00000
249.25  1.00000
249.30  1.00000
249.35  1.00000
249.40  1.00000
249.45  1.00000
249.50  1.00000
249.55  1.00000
249.60  1.00000
249.65  1.00000
249.70  1.00000
249.75  1.00000
249.80  1.00000
249.85  1.00000
249.90  1.00000
249.95  1.00000
250.00  1.00000
250.05  1.00000
250.10  1.00000
250.15  1.00000
250.20  1.00000
250.25  1.00000
250.30  1.00000
250.35  1.00000
250.40  1.00000
250.45  1.00000
250.50  1.00000
250.55  1.00000
250.60  1.00000
250.65  1.00000
250.70  1.00000
250.75  1.00000
250.80  1.00000
250.85  1.00000
250.90  1.00000
250.95  1.00000
251.00  1.00000
251.05  1.00000
251.10  1.00000
251.15  1.00000
251.20  1.00000
251.25  1.00000
251.30  1.00000
251.35  1.00000
251.40  1.00000
251.45  1.00000
251.50  1.00000
251.55  1.00000
251.60  1.00000
251.65  1.00000
251.70  1.00000
251.75  1.00000
251.80  1.00000
251.85  1.00000
251.90  1.00000
251.95  1.00000
252.00  1.00000
252.05  1.00000
252.10  1.00000
252.15  1.00000
252.20  1.00000
252.25  1.00000
252.30  1.00000
252.35  1.00000
252.40  1.00000
252.45  1.00000
252.50  1.00000
252.55  1.00000
252.60  1.00000
252.65  1.00000
252.70  1.00000
252.75  1.00000
252.80  1.00000
252.85  1.00000
252.90  1.00000
252.95  1.00000
253.00  1.00000
253.05  1.00000
253.10  1.00000
253.15  1.00000
253.20  1.00000
253.25  1.00000
253.30  1.00000
253.35  1.00000
253.40  1.00000
253.45  1.00000
253.50  1.00000
253.55  1.00000
253.60  1.00000
253.65  1.00000
253.70  1.00000
253.75  1.00000
253.80  1.00000
253.85  1.00000
253.90  1.00000
253.95  1.00000
254.00  1.00000
254.05  1.00000
254.10  1.00000
254.15  1.00000
254.20  1.00000
254.25  1.00000
254.30  1.00000
254.35  1.00000
254.40  1.00000
254.45  1.00000
254.50  1.00000
254.55  1.00000
254.60  1.00000
254.65  1.00000
254.70  1.00000
254.75  1.00000
254.80  1.00000
254.85  1.00000
254.90  1.00000
254.95  1.00000
255.00  1.00000
255.05  1.00000
255.10  1.00000
255.15  1.00000
255.20  1.00000
255.25  1.00000
255.30  1.00000
255.35  1.00000
255.40  1.00000
255.45  1.00000
255.50  1.00000
255.55  1.00000
255.60  1.00000
255.65  1.00000
255.70  1.00000
255.75  1.00000
255.80  1.00000
255.85  1.00000
255.90  1.00000
255.95  1.00000
256.00  1.00000
256.05  1.00000
256.10  1.00000
256.15  1.00000
256.20  1.00000
256.25  1.00000
256.30  1.00000
256.35  1.00000
256.40  1.00000
256.45  1.00000
256.50  1.00000
256.55  1.00000
256.60  1.00000
256.65  1.00000
256.70  1.00000
256.75  1.00000
256.80  1.00000
256.85  1.00000
256.90  1.00000
256.95  1.00000
257.00  1.00000
257.05  1.00000
257.10  1.00000
257.15  1.00000
257.20  1.00000
257.25  1.00000
257.30  1.00000
257.35  1.00000
257.40  1.00000
257.45  1.00000
257.50  1.00000
257.55  1.00000
257.60  1.00000
257.65  1.00000
257.70  1.00000
257.75  1.00000
257.80  1.00000
257.85  1.00000
257.90  1.00000
257.95  1.00000
258.00  1.00000
258.05  1.00000
258.10  1.00000
258.15  1.00000
258.20  1.00000
258.25  1.00000
258.30  1.00000
258.35  1.00000
258.40  1.00000
258.45  1.00000
258.50  1.00000
258.55  1.00000
258.60  1.00000
258.65  1.00000
258.70  1.00000
258.75  1.00000
258.80  1.00000
258.85  1.00000
258.90  1.00000
258.95  1.00000
259.00  1.00000
259.05  1.00000
259.10  1.00000
259.15  1.00000
259.20  1.00000
259.25  1.00000
259.30  1.00000
259.35  1.00000
259.40  1.00000
259.45  1.00000
259.50  1.00000
259.55  1.00000
259.60  1.00000
259.65  1.00000
259.70  1.00000
259.75  1.00000
259.80  1.00000
259.85  1.00000
259.90  1.00000
259.95  1.00000
260.00  1.00000
260.05  1.00000
260.10  1.00000
260.15  1.00000
260.20  1.00000
260.25  1.00000
260.30  1.00000
260.35  1.00000
260.40  1.00000
260.45  1.00000
260.50  1.00000
260.55  1.00000
260.60  1.00000
260.65  1.00000
260.70  1.00000
260.75  1.00000
260.80  1.00000
260.85  1.00000
260.90  1.00000
260.95  1.00000
261.00  1.00000
261.05  1.00000
261.10  1.00000
261.15  1.00000
261.20  1.00000
261.25  1.00000
261.30  1.00000
261.35  1.00000
261.40  1.00000
261.45  1.00000
261.50  1.00000
261.55  1.00000
261.60  1.00000
261.65  1.00000
261.70  1.00000
261.75  1.00000
261.80  1.00000
261.85  1.00000
261.90  1.00000
261.95  1.00000
262.00  1.00000
262.05  1.00000
262.10  1.00000
262.15  1.00000
262.20  1.00000
262.25  1.00000
262.30  1.00000
262.35  1.00000
262.40  1.00000
262.45  1.00000
262.50  1.00000
262.55  1.00000
262.60  1.00000
262.65  1.00000
262.70  1.00000
262.75  1.00000
262.80  1.00000
262.85  1.00000
262.90  1.00000
262.95  1.00000
263.00  1.00000
263.05  1.00000
263.10  1.00000
263.15  1.00000
263.20  1.00000
263.25  1.00000
263.30  1.00000
263.35  1.00000
263.40  1.00000
263.45  1.00000
263.50  1.00000
263.55  1.00000
263.60  1.00000
263.65  1.00000
263.70  1.00000
263.75  1.00000
263.80  1.00000
263.85  1.00000
263.90  1.00000
263.95  1.00000
264.00  1.00000
264.05  1.00000
264.10  1.00000
264.15  1.00000
264.20  1.00000
264.25  1.00000
264.30  1.00000
264.35  1.00000
264.40  1.00000
264.45  1.00000
264.50  1.00000
264.55  1.00000
264.60  1.00000
264.65  1.00000
264.70  1.00000
264.75  1.00000
264.80  1.00000
264.85  1.00000
264.90  1.00000
264.95  1.00000
265.00  1.00000
265.05  1.00000
265.10  1.00000
265.15  1.00000
265.20  1.00000
265.25  1.00000
265.30  1.00000
265.35  1.00000
265.40  1.00000
265.45  1.00000
265.50  1.00000
265.55  1.00000
265.60  1.00000
265.65  1.00000
265.70  1.00000
265.75  1.00000
265.80  1.00000
265.85  1.00000
265.90  1.00000
265.95  1.00000
266.00  1.00000
266.05  1.00000
266.10  1.00000
266.15  1.00000
266.20  1.00000
266.25  1.00000
266.30  1.00000
266.35  1.00000
266.40  1.00000
266.45  1.00000
266.50  1.00000
266.55  1.00000
266.60  1.00000
266.65  1.00000
266.70  1.00000
266.75  1.00000
266.80  1.00000
266.85  1.00000
266.90  1.00000
266.95  1.00000
267.00  1.00000
267.05  1.00000
267.10  1.00000
267.15  1.00000
267.20  1.00000
267.25  1.00000
267.30  1.00000
267.35  1.00000
267.40  1.00000
267.45  1.00000
267.50  1.00000
267.55  1.00000
267.60  1.00000
267.65  1.00000
267.70  1.00000
267.75  1.00000
267.80  1.00000
267.85  1.00000
267.90  1.00000
267.95  1.00000
268.00  1.00000
268.05  1.00000
268.10  1.00000
268.15  1.00000
268.20  1.00000
268.25  1.00000
268.30  1.00000
268.35  1.00000
268.40  1.00000
268.45  1.00000
268.50  1.00000
268.55  1.00000
268.60  1.00000
268.65  1.00000
268.70  1.00000
268.75  1.00000
268.80  1.00000
268.85  1.00000
268.90  1.00000
268.95  1.00000
269.00  1.00000
269.05  1.00000
269.10  1.00000
269.15  1.00000
269.20  1.00000
269.25  1.00000
269.30  1.00000
269.35  1.00000
269.40  1.00000
269.45  1.00000
269.50  1.00000
269.55  1.00000
269.60  1.00000
269.65  1.00000
269.70  1.00000
269.75  1.00000
269.80  1.00000
269.85  1.00000
269.90  1.00000
269.95  1.00000
270.00  1.00000
270.05  1.00000
270.10  1.00000
270.15  1.00000
270.20  1.00000
270.25  1.00000
270.30  1.00000
270.35  1.00000
270.40  1.00000
270.45  1.00000
270.50  1.00000
270.55  1.00000
270.60  1.00000
270.65  1.00000
270.70  1.00000
270.75  1.00000
270.80  1.00000
270.85  1.00000
270.90  1.00000
270.95  1.00000
271.00  1.00000
271.05  1.00000
271.10  1.00000
271.15  1.00000
271.20  1.00000
271.25  1.00000
271.30  1.00000
271.35  1.00000
271.40  1.00000
271.45  1.00000
271.50  1.00000
271.55  1.00000
271.60  1.00000
271.65  1.00000
271.70  1.00000
271.75  1.00000
271.80  1.00000
271.85  1.00000
271.90  1.00000
271.95  1.00000
272.00  1.00000
272.05  1.00000
272.10  1.00000
272.15  1.00000
272.20  1.00000
272.25  1.00000
272.30  1.00000
272.35  1.00000
272.40  1.00000
272.45  1.00000
272.50  1.00000
272.55  1.00000
272.60  1.00000
272.65  1.00000
272.70  1.00000
272.75  1.00000
272.80  1.00000
272.85  1.00000
272.90  1.00000
272.95  1.00000
273.00  1.00000
273.05  1.00000
273.10  1.00000
273.15  1.00000
273.20  1.00000
273.25  1.00000
273.30  1.00000
273.35  1.00000
273.40  1.00000
273.45  1.00000
273.50  1.00000
273.55  1.00000
273.60  1.00000
273.65  1.00000
273.70  1.00000
273.75  1.00000
273.80  1.00000
273.85  1.00000
273.90  1.00000
273.95  1.00000
274.00  1.00000
274.05  1.00000
274.10  1.00000
274.15  1.00000
274.20  1.00000
274.25  1.00000
274.30  1.00000
274.35  1.00000
274.40  1.00000
274.45  1.00000
274.50  1.00000
274.55  1.00000
274.60  1.00000
274.65  1.00000
274.70  1.00000
274.75  1.00000
274.80  1.00000
274.85  1.00000
274.90  1.00000
274.95  1.00000
275.00  1.00000
275.05  1.00000
275.10  1.00000
275.15  1.00000
275.20  1.00000
275.25  1.00000
275.30  1.00000
275.35  1.00000
275.40  1.00000
275.45  1.00000
275.50  1.00000
275.55  1.00000
275.60  1.00000
275.65  1.00000
275.70  1.00000
275.75  1.00000
275.80  1.00000
275.85  1.00000
275.90  1.00000
275.95  1.00000
276.00  1.00000
276.05  1.00000
276.10  1.00000
276.15  1.00000
276.20  1.00000
276.25  1.00000
276.30  1.00000
276.35  1.00000
276.40  1.00000
276.45  1.00000
276.50  1.00000
276.55  1.00000
276.60  1.00000
276.65  1.00000
276.70  1.00000
276.75  1.00000
276.80  1.00000
276.85  1.00000
276.90  1.00000
276.95  1.00000
277.00  1.00000
277.05  1.00000
277.10  1.00000
277.15  1.00000
277.20  1.00000
277.25  1.00000
277.30  1.00000
277.35  1.00000
277.40  1.00000
277.45  1.00000
277.50  1.00000
277.55  1.00000
277.60  1.00000
277.65  1.00000
277.70  1.00000
277.75  1.00000
277.80  1.00000
277.85  1.00000
277.90  1.00000
277.95  1.00000
278.00  1.00000
278.05  1.00000
278.10  1.00000
278.15  1.00000
278.20  1.00000
278.25  1.00000
278.30  1.00000
278.35  1.00000
278.40  1.00000
278.45  1.00000
278.50  1.00000
278.55  1.00000
278.60  1.00000
278.65  1.00000
278.70  1.00000
278.75  1.00000
278.80  1.00000
278.85  1.00000
278.90  1.00000
278.95  1.00000
279.00  1.00000
279.05  1.00000
279.10  1.00000
279.15  1.00000
279.20  1.00000
279.25  1.00000
279.30  1.00000
279.35  1.00000
279.40  1.00000
279.45  1.00000
279.50  1.00000
279.55  1.00000
279.60  1.00000
279.65  1.00000
279.70  1.00000
279.75  1.00000
279.80  1.00000
279.85  1.00000
279.90  1.00000
279.95  1.00000
280.00  1.00000
280.05  1.00000
280.10  1.00000
280.15  1.00000
280.20  1.00000
280.25  1.00000
280.30  1.00000
280.35  1.00000
280.40  1.00000
280.45  1.00000
280.50  1.00000
280.55  1.00000
280.60  1.00000
280.65  1.00000
280.70  1.00000
280.75  1.00000
280.80  1.00000
280.85  1.00000
280.90  1.00000
280.95  1.00000
281.00  1.00000
281.05  1.00000
281.10  1.00000
281.15  1.00000
281.20  1.00000
281.25  1.00000
281.30  1.00000
281.35  1.00000
281.40  1.00000
281.45  1.00000
281.50  1.00000
281.55  1.00000
281.60  1.00000
281.65  1.00000
281.70  1.00000
281.75  1.00000
281.80  1.00000
281.85  1.00000
281.90  1.00000
281.95  1.00000
282.00  1.00000
282.05  1.00000
282.10  1.00000
282.15  1.00000
282.20  1.00000
282.25  1.00000
282.30  1.00000
282.35  1.00000
282.40  1.00000
282.45  1.00000
282.50  1.00000
282.55  1.00000
282.60  1.00000
282.65  1.00000
282.70  1.00000
282.75  1.00000
282.80  1.00000
282.85  1.00000
282.90  1.00000
282.95  1.00000
283.00  1.00000
283.05  1.00000
283.10  1.00000
283.15  1.00000
283.20  1.00000
283.25  1.00000
283.30  1.00000
283.35  1.00000
283.40  1.00000
283.45  1.00000
283.50  1.00000
283.55  1.00000
283.60  1.00000
283.65  1.00000
283.70  1.00000
283.75  1.00000
283.80  1.00000
283.85  1.00000
283.90  1.00000
283.95  1.00000
284.00  1.00000
284.05  1.00000
284.10  1.00000
284.15  1.00000
284.20  1.00000
284.25  1.00000
284.30  1.00000
284.35  1.00000
284.40  1.00000
284.45  1.00000
284.50  1.00000
284.55  1.00000
284.60  1.00000
284.65  1.00000
284.70  1.00000
284.75  1.00000
284.80  1.00000
284.85  1.00000
284.90  1.00000
284.95  1.00000
285.00  1.00000
285.05  1.00000
285.10  1.00000
285.15  1.00000
285.20  1.00000
285.25  1.00000
285.30  1.00000
285.35  1.00000
285.40  1.00000
285.45  1.00000
285.50  1.00000
285.55  1.00000
285.60  1.00000
285.65  1.00000
285.70  1.00000
285.75  1.00000
285.80  1.00000
285.85  1.00000
285.90  1.00000
285.95  1.00000
286.00  1.00000
286.05  1.00000
286.10  1.00000
286.15  1.00000
286.20  1.00000
286.25  1.00000
286.30  1.00000
286.35  1.00000
286.40  1.00000
286.45  1.00000
286.50  1.00000
286.55  1.00000
286.60  1.00000
286.65  1.00000
286.70  1.00000
286.75  1.00000
286.80  1.00000
286.85  1.00000
286.90  1.00000
286.95  1.00000
287.00  1.00000
287.05  1.00000
287.10  1.00000
287.15  1.00000
287.20  1.00000
287.25  1.00000
287.30  1.00000
287.35  1.00000
287.40  1.00000
287.45  1.00000
287.50  1.00000
287.55  1.00000
287.60  1.00000
287.65  1.00000
287.70  1.00000
287.75  1.00000
287.80  1.00000
287.85  1.00000
287.90  1.00000
287.95  1.00000
288.00  1.00000
288.05  1.00000
288.10  1.00000
288.15  1.00000
288.20  1.00000
288.25  1.00000
288.30  1.00000
288.35  1.00000
288.40  1.00000
288.45  1.00000
288.50  1.00000
288.55  1.00000
288.60  1.00000
288.65  1.00000
288.70  1.00000
288.75  1.00000
288.80  1.00000
288.85  1.00000
288.90  1.00000
288.95  1.00000
289.00  1.00000
289.05  1.00000
289.10  1.00000
289.15  1.00000
289.20  1.00000
289.25  1.00000
289.30  1.00000
289.35  1.00000
289.40  1.00000
289.45  1.00000
289.50  1.00000
289.55  1.00000
289.60  1.00000
289.65  1.00000
289.70  1.00000
289.75  1.00000
289.80  1.00000
289.85  1.00000
289.90  1.00000
289.95  1.00000
290.00  1.00000
290.05  1.00000
290.10  1.00000
290.15  1.00000
290.20  1.00000
290.25  1.00000
290.30  1.00000
290.35  1.00000
290.40  1.00000
290.45  1.00000
290.50  1.00000
290.55  1.00000
290.60  1.00000
290.65  1.00000
290.70  1.00000
290.75  1.00000
290.80  1.00000
290.85  1.00000
290.90  1.00000
290.95  1.00000
291.00  1.00000
291.05  1.00000
291.10  1.00000
291.15  1.00000
291.20  1.00000
291.25  1.00000
291.30  1.00000
291.35  1.00000
291.40  1.00000
291.45  1.00000
291.50  1.00000
291.55  1.00000
291.60  1.00000
291.65  1.00000
291.70  1.00000
291.75  1.00000
291.80  1.00000
291.85  1.00000
291.90  1.00000
291.95  1.00000
292.00  1.00000
292.05  1.00000
292.10  1.00000
292.15  1.00000
292.20  1.00000
292.25  1.00000
292.30  1.00000
292.35  1.00000
292.40  1.00000
292.45  1.00000
292.50  1.00000
292.55  1.00000
292.60  1.00000
292.65  1.00000
292.70  1.00000
292.75  1.00000
292.80  1.00000
292.85  1.00000
292.90  1.00000
292.95  1.00000
293.00  1.00000
293.05  1.00000
293.10  1.00000
293.15  1.00000
293.20  1.00000
293.25  1.00000
293.30  1.00000
293.35  1.00000
293.40  1.00000
293.45  1.00000
293.50  1.00000
293.55  1.00000
293.60  1.00000
293.65  1.00000
293.70  1.00000
293.75  1.00000
293.80  1.00000
293.85  1.00000
293.90  1.00000
293.95  1.00000
294.00  1.00000
294.05  1.00000
294.10  1.00000
294.15  1.00000
294.20  1.00000
294.25  1.00000
294.30  1.00000
294.35  1.00000
294.40  1.00000
294.45  1.00000
294.50  1.00000
294.55  1.00000
294.60  1.00000
294.65  1.00000
294.70  1.00000
294.75  1.00000
294.80  1.00000
294.85  1.00000
294.90  1.00000
294.95  1.00000
295.00  1.00000
295.05  1.00000
295.10  1.00000
295.15  1.00000
295.20  1.00000
295.25  1.00000
295.30  1.00000
295.35  1.00000
295.40  1.00000
295.45  1.00000
295.50  1.00000
295.55  1.00000
295.60  1.00000
295.65  1.00000
295.70  1.00000
295.75  1.00000
295.80  1.00000
295.85  1.00000
295.90  1.00000
295.95  1.00000
296.00  1.00000
296.05  1.00000
296.10  1.00000
296.15  1.00000
296.20  1.00000
296.25  1.00000
296.30  1.00000
296.35  1.00000
296.40  1.00000
296.45  1.00000
296.50  1.00000
296.55  1.00000
296.60  1.00000
296.65  1.00000
296.70  1.00000
296.75  1.00000
296.80  1.00000
296.85  1.00000
296.90  1.00000
296.95  1.00000
297.00  1.00000
297.05  1.00000
297.10  1.00000
297.15  1.00000
297.20  1.00000
297.25  1.00000
297.30  1.00000
297.35  1.00000
297.40  1.00000
297.45  1.00000
297.50  1.00000
297.55  1.00000
297.60  1.00000
297.65  1.00000
297.70  1.00000
297.75  1.00000
297.80  1.00000
297.85  1.00000
297.90  1.00000
297.95  1.00000
298.00  1.00000
298.05  1.00000
298.10  1.00000
298.15  1.00000
298.20  1.00000
298.25  1.00000
298.30  1.00000
298.35  1.00000
298.40  1.00000
298.45  1.00000
298.50  1.00000
298.55  1.00000
298.60  1.00000
298.65  1.00000
298.70  1.00000
298.75  1.00000
298.80  1.00000
298.85  1.00000
298.90  1.00000
298.95  1.00000
299.00  1.00000
299.05  1.00000
299.10  1.00000
299.15  1.00000
299.20  1.00000
299.25  1.00000
299.30  1.00000
299.35  1.00000
299.40  1.00000
299.45  1.00000
299.50  1.00000
299.55  1.00000
299.60  1.00000
299.65  1.00000
299.70  1.00000
299.75  1.00000
299.80  1.00000
299.85  1.00000
299.90  1.00000
299.95  1.00000
300.00  1.00000
300.05  1.00000
300.10  1.00000
300.15  1.00000
300.20  1.00000
300.25  1.00000
300.30  1.00000
300.35  1.00000
300.40  1.00000
300.45  1.00000
300.50  1.00000
300.55  1.00000
300.60  1.00000
300.65  1.00000
300.70  1.00000
300.75  1.00000
300.80  1.00000
300.85  1.00000
300.90  1.00000
300.95  1.00000
301.00  1.00000
301.05  1.00000
301.10  1.00000
301.15  1.00000
301.20  1.00000
301.25  1.00000
301.30  1.00000
301.35  1.00000
301.40  1.00000
301.45  1.00000
301.50  1.00000
301.55  1.00000
301.60  1.00000
301.65  1.00000
301.70  1.00000
301.75  1.00000
301.80  1.00000
301.85  1.00000
301.90  1.00000
301.95  1.00000
302.00  1.00000
302.05  1.00000
302.10  1.00000
302.15  1.00000
302.20  1.00000
302.25  1.00000
302.30  1.00000
302.35  1.00000
302.40  1.00000
302.45  1.00000
302.50  1.00000
302.55  1.00000
302.60  1.00000
302.65  1.00000
302.70  1.00000
302.75  1.00000
302.80  1.00000
302.85  1.00000
302.90  1.00000
302.95  1.00000
303.00  1.00000
303.05  1.00000
303.10  1.00000
303.15  1.00000
303.20  1.00000
303.25  1.00000
303.30  1.00000
303.35  1.00000
303.40  1.00000
303.45  1.00000
303.50  1.00000
303.55  1.00000
303.60  1.00000
303.65  1.00000
303.70  1.00000
303.75  1.00000
303.80  1.00000
303.85  1.00000
303.90  1.00000
303.95  1.00000
304.00  1.00000
304.05  1.00000
304.10  1.00000
304.15  1.00000
304.20  1.00000
304.25  1.00000
304.30  1.00000
304.35  1.00000
304.40  1.00000
304.45  1.00000
304.50  1.00000
304.55  1.00000
304.60  1.00000
304.65  1.00000
304.70  1.00000
304.75  1.00000
304.80  1.00000
304.85  1.00000
304.90  1.00000
304.95  1.00000
305.00  1.00000
305.05  1.00000
305.10  1.00000
305.15  1.00000
305.20  1.00000
305.25  1.00000
305.30  1.00000
305.35  1.00000
305.40  1.00000
305.45  1.00000
305.50  1.00000
305.55  1.00000
305.60  1.00000
305.65  1.00000
305.70  1.00000
305.75  1.00000
305.80  1.00000
305.85  1.00000
305.90  1.00000
305.95  1.00000
306.00  1.00000
306.05  1.00000
306.10  1.00000
306.15  1.00000
306.20  1.00000
306.25  1.00000
306.30  1.00000
306.35  1.00000
306.40  1.00000
306.45  1.00000
306.50  1.00000
306.55  1.00000
306.60  1.00000
306.65  1.00000
306.70  1.00000
306.75  1.00000
306.80  1.00000
306.85  1.00000
306.90  1.00000
306.95  1.00000
307.00  1.00000
307.05  1.00000
307.10  1.00000
307.15  1.00000
307.20  1.00000
307.25  1.00000
307.30  1.00000
307.35  1.00000
307.40  1.00000
307.45  1.00000
307.50  1.00000
307.55  1.00000
307.60  1.00000
307.65  1.00000
307.70  1.00000
307.75  1.00000
307.80  1.00000
307.85  1.00000
307.90  1.00000
307.95  1.00000
308.00  1.00000
308.05  1.00000
308.10  1.00000
308.15  1.00000
308.20  1.00000
308.25  1.00000
308.30  1.00000
308.35  1.00000
308.40  1.00000
308.45  1.00000
308.50  1.00000
308.55  1.00000
308.60  1.00000
308.65  1.00000
308.70  1.00000
308.75  1.00000
308.80  1.00000
308.85  1.00000
308.90  1.00000
308.95  1.00000
309.00  1.00000
309.05  1.00000
309.10  1.00000
309.15  1.00000
309.20  1.00000
309.25  1.00000
309.30  1.00000
309.35  1.00000
309.40  1.00000
309.45  1.00000
309.50  1.00000
309.55  1.00000
309.60  1.00000
309.65  1.00000
309.70  1.00000
309.75  1.00000
309.80  1.00000
309.85  1.00000
309.90  1.00000
309.95  1.00000
310.00  1.00000
310.05  1.00000
310.10  1.00000
310.15  1.00000
310.20  1.00000
310.25  1.00000
310.30  1.00000
310.35  1.00000
310.40  1.00000
310.45  1.00000
310.50  1.00000
310.55  1.00000
310.60  1.00000
310.65  1.00000
310.70  1.00000
310.75  1.00000
310.80  1.00000
310.85  1.00000
310.90  1.00000
310.95  1.00000
311.00  1.00000
311.05  1.00000
311.10  1.00000
311.15  1.00000
311.20  1.00000
311.25  1.00000
311.30  1.00000
311.35  1.00000
311.40  1.00000
311.45  1.00000
311.50  1.00000
311.55  1.00000
311.60  1.00000
311.65  1.00000
311.70  1.00000
311.75  1.00000
311.80  1.00000
311.85  1.00000
311.90  1.00000
311.95  1.00000
312.00  1.00000
312.05  1.00000
312.10  1.00000
312.15  1.00000
312.20  1.00000
312.25  1.00000
312.30  1.00000
312.35  1.00000
312.40  1.00000
312.45  1.00000
312.50  1.00000
312.55  1.00000
312.60  1.00000
312.65  1.00000
312.70  1.00000
312.75  1.00000
312.80  1.00000
312.85  1.00000
312.90  1.00000
312.95  1.00000
313.00  1.00000
313.05  1.00000
313.10  1.00000
313.15  1.00000
313.20  1.00000
313.25  1.00000
313.30  1.00000
313.35  1.00000
313.40  1.00000
313.45  1.00000
313.50  1.00000
313.55  1.00000
313.60  1.00000
313.65  1.00000
313.70  1.00000
313.75  1.00000
313.80  1.00000
313.85  1.00000
313.90  1.00000
313.95  1.00000
314.00  1.00000
314.05  1.00000
314.10  1.00000
314.15  1.00000
314.20  1.00000
314.25  1.00000
314.30  1.00000
314.35  1.00000
314.40  1.00000
314.45  1.00000
314.50  1.00000
314.55  1.00000
314.60  1.00000
314.65  1.00000
314.70  1.00000
314.75  1.00000
314.80  1.00000
314.85  1.00000
314.90  1.00000
314.95  1.00000
315.00  1.00000
315.05  1.00000
315.10  1.00000
315.15  1.00000
315.20  1.00000
315.25  1.00000
315.30  1.00000
315.35  1.00000
315.40  1.00000
315.45  1.00000
315.50  1.00000
315.55  1.00000
315.60  1.00000
315.65  1.00000
315.70  1.00000
315.75  1.00000
315.80  1.00000
315.85  1.00000
315.90  1.00000
315.95  1.00000
316.00  1.00000
316.05  1.00000
316.10  1.00000
316.15  1.00000
316.20  1.00000
316.25  1.00000
316.30  1.00000
316.35  1.00000
316.40  1.00000
316.45  1.00000
316.50  1.00000
316.55  1.00000
316.60  1.00000
316.65  1.00000
316.70  1.00000
316.75  1.00000
316.80  1.00000
316.85  1.00000
316.90  1.00000
316.95  1.00000
317.00  1.00000
317.05  1.00000
317.10  1.00000
317.15  1.00000
317.20  1.00000
317.25  1.00000
317.30  1.00000
317.35  1.00000
317.40  1.00000
317.45  1.00000
317.50  1.00000
317.55  1.00000
317.60  1.00000
317.65  1.00000
317.70  1.00000
317.75  1.00000
317.80  1.00000
317.85  1.00000
317.90  1.00000
317.95  1.00000
318.00  1.00000
318.05  1.00000
318.10  1.00000
318.15  1.00000
318.20  1.00000
318.25  1.00000
318.30  1.00000
318.35  1.00000
318.40  1.00000
318.45  1.00000
318.50  1.00000
318.55  1.00000
318.60  1.00000
318.65  1.00000
318.70  1.00000
318.75  1.00000
318.80  1.00000
318.85  1.00000
318.90  1.00000
318.95  1.00000
319.00  1.00000
319.05  1.00000
319.10  1.00000
319.15  1.00000
319.20  1.00000
319.25  1.00000
319.30  1.00000
319.35  1.00000
319.40  1.00000
319.45  1.00000
319.50  1.00000
319.55  1.00000
319.60  1.00000
319.65  1.00000
319.70  1.00000
319.75  1.00000
319.80  1.00000
319.85  1.00000
319.90  1.00000
319.95  1.00000
320.00  1.00000
320.05  1.00000
320.10  1.00000
320.15  1.00000
320.20  1.00000
320.25  1.00000
320.30  1.00000
320.35  1.00000
320.40  1.00000
320.45  1.00000
320.50  1.00000
320.55  1.00000
320.60  1.00000
320.65  1.00000
320.70  1.00000
320.75  1.00000
320.80  1.00000
320.85  1.00000
320.90  1.00000
320.95  1.00000
321.00  1.00000
321.05  1.00000
321.10  1.00000
321.15  1.00000
321.20  1.00000
321.25  1.00000
321.30  1.00000
321.35  1.00000
321.40  1.00000
321.45  1.00000
321.50  1.00000
321.55  1.00000
321.60  1.00000
321.65  1.00000
321.70  1.00000
321.75  1.00000
321.80  1.00000
321.85  1.00000
321.90  1.00000
321.95  1.00000
322.00  1.00000
322.05  1.00000
322.10  1.00000
322.15  1.00000
322.20  1.00000
322.25  1.00000
322.30  1.00000
322.35  1.00000
322.40  1.00000
322.45  1.00000
322.50  1.00000
322.55  1.00000
322.60  1.00000
322.65  1.00000
322.70  1.00000
322.75  1.00000
322.80  1.00000
322.85  1.00000
322.90  1.00000
322.95  1.00000
323.00  1.00000
323.05  1.00000
323.10  1.00000
323.15  1.00000
323.20  1.00000
323.25  1.00000
323.30  1.00000
323.35  1.00000
323.40  1.00000
323.45  1.00000
323.50  1.00000
323.55  1.00000
323.60  1.00000
323.65  1.00000
323.70  1.00000
323.75  1.00000
323.80  1.00000
323.85  1.00000
323.90  1.00000
323.95  1.00000
324.00  1.00000
324.05  1.00000
324.10  1.00000
324.15  1.00000
324.20  1.00000
324.25  1.00000
324.30  1.00000
324.35  1.00000
324.40  1.00000
324.45  1.00000
324.50  1.00000
324.55  1.00000
324.60  1.00000
324.65  1.00000
324.70  1.00000
324.75  1.00000
324.80  1.00000
324.85  1.00000
324.90  1.00000
324.95  1.00000
325.00  1.00000
325.05  1.00000
325.10  1.00000
325.15  1.00000
325.20  1.00000
325.25  1.00000
325.30  1.00000
325.35  1.00000
325.40  1.00000
325.45  1.00000
325.50  1.00000
325.55  1.00000
325.60  1.00000
325.65  1.00000
325.70  1.00000
325.75  1.00000
325.80  1.00000
325.85  1.00000
325.90  1.00000
325.95  1.00000
326.00  1.00000
326.05  1.00000
326.10  1.00000
326.15  1.00000
326.20  1.00000
326.25  1.00000
326.30  1.00000
326.35  1.00000
326.40  1.00000
326.45  1.00000
326.50  1.00000
326.55  1.00000
326.60  1.00000
326.65  1.00000
326.70  1.00000
326.75  1.00000
326.80  1.00000
326.85  1.00000
326.90  1.00000
326.95  1.00000
327.00  1.00000
327.05  1.00000
327.10  1.00000
327.15  1.00000
327.20  1.00000
327.25  1.00000
327.30  1.00000
327.35  1.00000
327.40  1.00000
327.45  1.00000
327.50  1.00000
327.55  1.00000
327.60  1.00000
327.65  1.00000
327.70  1.00000
327.75  1.00000
327.80  1.00000
327.85  1.00000
327.90  1.00000
327.95  1.00000
328.00  1.00000
328.05  1.00000
328.10  1.00000
328.15  1.00000
328.20  1.00000
328.25  1.00000
328.30  1.00000
328.35  1.00000
328.40  1.00000
328.45  1.00000
328.50  1.00000
328.55  1.00000
328.60  1.00000
328.65  1.00000
328.70  1.00000
328.75  1.00000
328.80  1.00000
328.85  1.00000
328.90  1.00000
328.95  1.00000
329.00  1.00000
329.05  1.00000
329.10  1.00000
329.15  1.00000
329.20  1.00000
329.25  1.00000
329.30  1.00000
329.35  1.00000
329.40  1.00000
329.45  1.00000
329.50  1.00000
329.55  1.00000
329.60  1.00000
329.65  1.00000
329.70  1.00000
329.75  1.00000
329.80  1.00000
329.85  1.00000
329.90  1.00000
329.95  1.00000
330.00  1.00000
330.05  1.00000
330.10  1.00000
330.15  1.00000
330.20  1.00000
330.25  1.00000
330.30  1.00000
330.35  1.00000
330.40  1.00000
330.45  1.00000
330.50  1.00000
330.55  1.00000
330.60  1.00000
330.65  1.00000
330.70  1.00000
330.75  1.00000
330.80  1.00000
330.85  1.00000
330.90  1.00000
330.95  1.00000
331.00  1.00000
331.05  1.00000
331.10  1.00000
331.15  1.00000
331.20  1.00000
331.25  1.00000
331.30  1.00000
331.35  1.00000
331.40  1.00000
331.45  1.00000
331.50  1.00000
331.55  1.00000
331.60  1.00000
331.65  1.00000
331.70  1.00000
331.75  1.00000
331.80  1.00000
331.85  1.00000
331.90  1.00000
331.95  1.00000
332.00  1.00000
332.05  1.00000
332.10  1.00000
332.15  1.00000
332.20  1.00000
332.25  1.00000
332.30  1.00000
332.35  1.00000
332.40  1.00000
332.45  1.00000
332.50  1.00000
332.55  1.00000
332.60  1.00000
332.65  1.00000
332.70  1.00000
332.75  1.00000
332.80  1.00000
332.85  1.00000
332.90  1.00000
332.95  1.00000
333.00  1.00000
333.05  1.00000
333.10  1.00000
333.15  1.00000
333.20  1.00000
333.25  1.00000
333.30  1.00000
333.35  1.00000
333.40  1.00000
333.45  1.00000
333.50  1.00000
333.55  1.00000
333.60  1.00000
333.65  1.00000
333.70  1.00000
333.75  1.00000
333.80  1.00000
333.85  1.00000
333.90  1.00000
333.95  1.00000
334.00  1.00000
334.05  1.00000
334.10  1.00000
334.15  1.00000
334.20  1.00000
334.25  1.00000
334.30  1.00000
334.35  1.00000
334.40  1.00000
334.45  1.00000
334.50  1.00000
334.55  1.00000
334.60  1.00000
334.65  1.00000
334.70  1.00000
334.75  1.00000
334.80  1.00000
334.85  1.00000
334.90  1.00000
334.95  1.00000
335.00  1.00000
335.05  1.00000
335.10  1.00000
335.15  1.00000
335.20  1.00000
335.25  1.00000
335.30  1.00000
335.35  1.00000
335.40  1.00000
335.45  1.00000
335.50  1.00000
335.55  1.00000
335.60  1.00000
335.65  1.00000
335.70  1.00000
335.75  1.00000
335.80  1.00000
335.85  1.00000
335.90  1.00000
335.95  1.00000
336.00  1.00000
336.05  1.00000
336.10  1.00000
336.15  1.00000
336.20  1.00000
336.25  1.00000
336.30  1.00000
336.35  1.00000
336.40  1.00000
336.45  1.00000
336.50  1.00000
336.55  1.00000
336.60  1.00000
336.65  1.00000
336.70  1.00000
336.75  1.00000
336.80  1.00000
336.85  1.00000
336.90  1.00000
336.95  1.00000
337.00  1.00000
337.05  1.00000
337.10  1.00000
337.15  1.00000
337.20  1.00000
337.25  1.00000
337.30  1.00000
337.35  1.00000
337.40  1.00000
337.45  1.00000
337.50  1.00000
337.55  1.00000
337.60  1.00000
337.65  1.00000
337.70  1.00000
337.75  1.00000
337.80  1.00000
337.85  1.00000
337.90  1.00000
337.95  1.00000
338.00  1.00000
338.05  1.00000
338.10  1.00000
338.15  1.00000
338.20  1.00000
338.25  1.00000
338.30  1.00000
338.35  1.00000
338.40  1.00000
338.45  1.00000
338.50  1.00000
338.55  1.00000
338.60  1.00000
338.65  1.00000
338.70  1.00000
338.75  1.00000
338.80  1.00000
338.85  1.00000
338.90  1.00000
338.95  1.00000
339.00  1.00000
339.05  1.00000
339.10  1.00000
339.15  1.00000
339.20  1.00000
339.25  1.00000
339.30  1.00000
339.35  1.00000
339.40  1.00000
339.45  1.00000
339.50  1.00000
339.55  1.00000
339.60  1.00000
339.65  1.00000
339.70  1.00000
339.75  1.00000
339.80  1.00000
339.85  1.00000
339.90  1.00000
339.95  1.00000
340.00  1.00000
340.05  1.00000
340.10  1.00000
340.15  1.00000
340.20  1.00000
340.25  1.00000
340.30  1.00000
340.35  1.00000
340.40  1.00000
340.45  1.00000
340.50  1.00000
340.55  1.00000
340.60  1.00000
340.65  1.00000
340.70  1.00000
340.75  1.00000
340.80  1.00000
340.85  1.00000
340.90  1.00000
340.95  1.00000
341.00  1.00000
341.05  1.00000
341.10  1.00000
341.15  1.00000
341.20  1.00000
341.25  1.00000
341.30  1.00000
341.35  1.00000
341.40  1.00000
341.45  1.00000
341.50  1.00000
341.55  1.00000
341.60  1.00000
341.65  1.00000
341.70  1.00000
341.75  1.00000
341.80  1.00000
341.85  1.00000
341.90  1.00000
341.95  1.00000
342.00  1.00000
342.05  1.00000
342.10  1.00000
342.15  1.00000
342.20  1.00000
342.25  1.00000
342.30  1.00000
342.35  1.00000
342.40  1.00000
342.45  1.00000
342.50  1.00000
342.55  1.00000
342.60  1.00000
342.65  1.00000
342.70  1.00000
342.75  1.00000
342.80  1.00000
342.85  1.00000
342.90  1.00000
342.95  1.00000
343.00  1.00000
343.05  1.00000
343.10  1.00000
343.15  1.00000
343.20  1.00000
343.25  1.00000
343.30  1.00000
343.35  1.00000
343.40  1.00000
343.45  1.00000
343.50  1.00000
343.55  1.00000
343.60  1.00000
343.65  1.00000
343.70  1.00000
343.75  1.00000
343.80  1.00000
343.85  1.00000
343.90  1.00000
343.95  1.00000
344.00  1.00000
344.05  1.00000
344.10  1.00000
344.15  1.00000
344.20  1.00000
344.25  1.00000
344.30  1.00000
344.35  1.00000
344.40  1.00000
344.45  1.00000
344.50  1.00000
344.55  1.00000
344.60  1.00000
344.65  1.00000
344.70  1.00000
344.75  1.00000
344.80  1.00000
344.85  1.00000
344.90  1.00000
344.95  1.00000
345.00  1.00000
345.05  1.00000
345.10  1.00000
345.15  1.00000
345.20  1.00000
345.25  1.00000
345.30  1.00000
345.35  1.00000
345.40  1.00000
345.45  1.00000
345.50  1.00000
345.55  1.00000
345.60  1.00000
345.65  1.00000
345.70  1.00000
345.75  1.00000
345.80  1.00000
345.85  1.00000
345.90  1.00000
345.95  1.00000
346.00  1.00000
346.05  1.00000
346.10  1.00000
346.15  1.00000
346.20  1.00000
346.25  1.00000
346.30  1.00000
346.35  1.00000
346.40  1.00000
346.45  1.00000
346.50  1.00000
346.55  1.00000
346.60  1.00000
346.65  1.00000
346.70  1.00000
346.75  1.00000
346.80  1.00000
346.85  1.00000
346.90  1.00000
346.95  1.00000
347.00  1.00000
347.05  1.00000
347.10  1.00000
347.15  1.00000
347.20  1.00000
347.25  1.00000
347.30  1.00000
347.35  1.00000
347.40  1.00000
347.45  1.00000
347.50  1.00000
347.55  1.00000
347.60  1.00000
347.65  1.00000
347.70  1.00000
347.75  1.00000
347.80  1.00000
347.85  1.00000
347.90  1.00000
347.95  1.00000
348.00  1.00000
348.05  1.00000
348.10  1.00000
348.15  1.00000
348.20  1.00000
348.25  1.00000
348.30  1.00000
348.35  1.00000
348.40  1.00000
348.45  1.00000
348.50  1.00000
348.55  1.00000
348.60  1.00000
348.65  1.00000
348.70  1.00000
348.75  1.00000
348.80  1.00000
348.85  1.00000
348.90  1.00000
348.95  1.00000
349.00  1.00000
349.05  1.00000
349.10  1.00000
349.15  1.00000
349.20  1.00000
349.25  1.00000
349.30  1.00000
349.35  1.00000
349.40  1.00000
349.45  1.00000
349.50  1.00000
349.55  1.00000
349.60  1.00000
349.65  1.00000
349.70  1.00000
349.75  1.00000
349.80  1.00000
349.85  1.00000
349.90  1.00000
349.95  1.00000
350.00  1.00000
350.05  1.00000
350.10  1.00000
350.15  1.00000
350.20  1.00000
350.25  1.00000
350.30  1.00000
350.35  1.00000
350.40  1.00000
350.45  1.00000
350.50  1.00000
350.55  1.00000
350.60  1.00000
350.65  1.00000
350.70  1.00000
350.75  1.00000
350.80  1.00000
350.85  1.00000
350.90  1.00000
350.95  1.00000
351.00  1.00000
351.05  1.00000
351.10  1.00000
351.15  1.00000
351.20  1.00000
351.25  1.00000
351.30  1.00000
351.35  1.00000
351.40  1.00000
351.45  1.00000
351.50  1.00000
351.55  1.00000
351.60  1.00000
351.65  1.00000
351.70  1.00000
351.75  1.00000
351.80  1.00000
351.85  1.00000
351.90  1.00000
351.95  1.00000
352.00  1.00000
352.05  1.00000
352.10  1.00000
352.15  1.00000
352.20  1.00000
352.25  1.00000
352.30  1.00000
352.35  1.00000
352.40  1.00000
352.45  1.00000
352.50  1.00000
352.55  1.00000
352.60  1.00000
352.65  1.00000
352.70  1.00000
352.75  1.00000
352.80  1.00000
352.85  1.00000
352.90  1.00000
352.95  1.00000
353.00  1.00000
353.05  1.00000
353.10  1.00000
353.15  1.00000
353.20  1.00000
353.25  1.00000
353.30  1.00000
353.35  1.00000
353.40  1.00000
353.45  1.00000
353.50  1.00000
353.55  1.00000
353.60  1.00000
353.65  1.00000
353.70  1.00000
353.75  1.00000
353.80  1.00000
353.85  1.00000
353.90  1.00000
353.95  1.00000
354.00  1.00000
354.05  1.00000
354.10  1.00000
354.15  1.00000
354.20  1.00000
354.25  1.00000
354.30  1.00000
354.35  1.00000
354.40  1.00000
354.45  1.00000
354.50  1.00000
354.55  1.00000
354.60  1.00000
354.65  1.00000
354.70  1.00000
354.75  1.00000
354.80  1.00000
354.85  1.00000
354.90  1.00000
354.95  1.00000
355.00  1.00000
355.05  1.00000
355.10  1.00000
355.15  1.00000
355.20  1.00000
355.25  1.00000
355.30  1.00000
355.35  1.00000
355.40  1.00000
355.45  1.00000
355.50  1.00000
355.55  1.00000
355.60  1.00000
355.65  1.00000
355.70  1.00000
355.75  1.00000
355.80  1.00000
355.85  1.00000
355.90  1.00000
355.95  1.00000
356.00  1.00000
356.05  1.00000
356.10  1.00000
356.15  1.00000
356.20  1.00000
356.25  1.00000
356.30  1.00000
356.35  1.00000
356.40  1.00000
356.45  1.00000
356.50  1.00000
356.55  1.00000
356.60  1.00000
356.65  1.00000
356.70  1.00000
356.75  1.00000
356.80  1.00000
356.85  1.00000
356.90  1.00000
356.95  1.00000
357.00  1.00000
357.05  1.00000
357.10  1.00000
357.15  1.00000
357.20  1.00000
357.25  1.00000
357.30  1.00000
357.35  1.00000
357.40  1.00000
357.45  1.00000
357.50  1.00000
357.55  1.00000
357.60  1.00000
357.65  1.00000
357.70  1.00000
357.75  1.00000
357.80  1.00000
357.85  1.00000
357.90  1.00000
357.95  1.00000
358.00  1.00000
358.05  1.00000
358.10  1.00000
358.15  1.00000
358.20  1.00000
358.25  1.00000
358.30  1.00000
358.35  1.00000
358.40  1.00000
358.45  1.00000
358.50  1.00000
358.55  1.00000
358.60  1.00000
358.65  1.00000
358.70  1.00000
358.75  1.00000
358.80  1.00000
358.85  1.00000
358.90  1.00000
358.95  1.00000
359.00  1.00000
359.05  1.00000
359.10  1.00000
359.15  1.00000
359.20  1.00000
359.25  1.00000
359.30  1.00000
359.35  1.00000
359.40  1.00000
359.45  1.00000
359.50  1.00000
359.55  1.00000
359.60  1.00000
359.65  1.00000
359.70  1.00000
359.75  1.00000
359.80  1.00000
359.85  1.00000
359.90  1.00000
359.95  1.00000
360.00  1.00000
360.05  1.00000
360.10  1.00000
360.15  1.00000
360.20  1.00000
360.25  1.00000
360.30  1.00000
360.35  1.00000
360.40  1.00000
360.45  1.00000
360.50  1.00000
360.55  1.00000
360.60  1.00000
360.65  1.00000
360.70  1.00000
360.75  1.00000
360.80  1.00000
360.85  1.00000
360.90  1.00000
360.95  1.00000
361.00  1.00000
361.05  1.00000
361.10  1.00000
361.15  1.00000
361.20  1.00000
361.25  1.00000
361.30  1.00000
361.35  1.00000
361.40  1.00000
361.45  1.00000
361.50  1.00000
361.55  1.00000
361.60  1.00000
361.65  1.00000
361.70  1.00000
361.75  1.00000
361.80  1.00000
361.85  1.00000
361.90  1.00000
361.95  1.00000
362.00  1.00000
362.05  1.00000
362.10  1.00000
362.15  1.00000
362.20  1.00000
362.25  1.00000
362.30  1.00000
362.35  1.00000
362.40  1.00000
362.45  1.00000
362.50  1.00000
362.55  1.00000
362.60  1.00000
362.65  1.00000
362.70  1.00000
362.75  1.00000
362.80  1.00000
362.85  1.00000
362.90  1.00000
362.95  1.00000
363.00  1.00000
363.05  1.00000
363.10  1.00000
363.15  1.00000
363.20  1.00000
363.25  1.00000
363.30  1.00000
363.35  1.00000
363.40  1.00000
363.45  1.00000
363.50  1.00000
363.55  1.00000
363.60  1.00000
363.65  1.00000
363.70  1.00000
363.75  1.00000
363.80  1.00000
363.85  1.00000
363.90  1.00000
363.95  1.00000
364.00  1.00000
364.05  1.00000
364.10  1.00000
364.15  1.00000
364.20  1.00000
364.25  1.00000
364.30  1.00000
364.35  1.00000
364.40  1.00000
364.45  1.00000
364.50  1.00000
364.55  1.00000
364.60  1.00000
364.65  1.00000
364.70  1.00000
364.75  1.00000
364.80  1.00000
364.85  1.00000
364.90  1.00000
364.95  1.00000
365.00  1.00000
365.05  1.00000
365.10  1.00000
365.15  1.00000
365.20  1.00000
365.25  1.00000
365.30  1.00000
365.35  1.00000
365.40  1.00000
365.45  1.00000
365.50  1.00000
365.55  1.00000
365.60  1.00000
365.65  1.00000
365.70  1.00000
365.75  1.00000
365.80  1.00000
365.85  1.00000
365.90  1.00000
365.95  1.00000
366.00  1.00000
366.05  1.00000
366.10  1.00000
366.15  1.00000
366.20  1.00000
366.25  1.00000
366.30  1.00000
366.35  1.00000
366.40  1.00000
366.45  1.00000
366.50  1.00000
366.55  1.00000
366.60  1.00000
366.65  1.00000
366.70  1.00000
366.75  1.00000
366.80  1.00000
366.85  1.00000
366.90  1.00000
366.95  1.00000
367.00  1.00000
367.05  1.00000
367.10  1.00000
367.15  1.00000
367.20  1.00000
367.25  1.00000
367.30  1.00000
367.35  1.00000
367.40  1.00000
367.45  1.00000
367.50  1.00000
367.55  1.00000
367.60  1.00000
367.65  1.00000
367.70  1.00000
367.75  1.00000
367.80  1.00000
367.85  1.00000
367.90  1.00000
367.95  1.00000
368.00  1.00000
368.05  1.00000
368.10  1.00000
368.15  1.00000
368.20  1.00000
368.25  1.00000
368.30  1.00000
368.35  1.00000
368.40  1.00000
368.45  1.00000
368.50  1.00000
368.55  1.00000
368.60  1.00000
368.65  1.00000
368.70  1.00000
368.75  1.00000
368.80  1.00000
368.85  1.00000
368.90  1.00000
368.95  1.00000
369.00  1.00000
369.05  1.00000
369.10  1.00000
369.15  1.00000
369.20  1.00000
369.25  1.00000
369.30  1.00000
369.35  1.00000
369.40  1.00000
369.45  1.00000
369.50  1.00000
369.55  1.00000
369.60  1.00000
369.65  1.00000
369.70  1.00000
369.75  1.00000
369.80  1.00000
369.85  1.00000
369.90  1.00000
369.95  1.00000
370.00  1.00000
370.05  1.00000
370.10  1.00000
370.15  1.00000
370.20  1.00000
370.25  1.00000
370.30  1.00000
370.35  1.00000
370.40  1.00000
370.45  1.00000
370.50  1.00000
370.55  1.00000
370.60  1.00000
370.65  1.00000
370.70  1.00000
370.75  1.00000
370.80  1.00000
370.85  1.00000
370.90  1.00000
370.95  1.00000
371.00  1.00000
371.05  1.00000
371.10  1.00000
371.15  1.00000
371.20  1.00000
371.25  1.00000
371.30  1.00000
371.35  1.00000
371.40  1.00000
371.45  1.00000
371.50  1.00000
371.55  1.00000
371.60  1.00000
371.65  1.00000
371.70  1.00000
371.75  1.00000
371.80  1.00000
371.85  1.00000
371.90  1.00000
371.95  1.00000
372.00  1.00000
372.05  1.00000
372.10  1.00000
372.15  1.00000
372.20  1.00000
372.25  1.00000
372.30  1.00000
372.35  1.00000
372.40  1.00000
372.45  1.00000
372.50  1.00000
372.55  1.00000
372.60  1.00000
372.65  1.00000
372.70  1.00000
372.75  1.00000
372.80  1.00000
372.85  1.00000
372.90  1.00000
372.95  1.00000
373.00  1.00000
373.05  1.00000
373.10  1.00000
373.15  1.00000
373.20  1.00000
373.25  1.00000
373.30  1.00000
373.35  1.00000
373.40  1.00000
373.45  1.00000
373.50  1.00000
373.55  1.00000
373.60  1.00000
373.65  1.00000
373.70  1.00000
373.75  1.00000
373.80  1.00000
373.85  1.00000
373.90  1.00000
373.95  1.00000
374.00  1.00000
374.05  1.00000
374.10  1.00000
374.15  1.00000
374.20  1.00000
374.25  1.00000
374.30  1.00000
374.35  1.00000
374.40  1.00000
374.45  1.00000
374.50  1.00000
374.55  1.00000
374.60  1.00000
374.65  1.00000
374.70  1.00000
374.75  1.00000
374.80  1.00000
374.85  1.00000
374.90  1.00000
374.95  1.00000
375.00  1.00000
375.05  1.00000
375.10  1.00000
375.15  1.00000
375.20  1.00000
375.25  1.00000
375.30  1.00000
375.35  1.00000
375.40  1.00000
375.45  1.00000
375.50  1.00000
375.55  1.00000
375.60  1.00000
375.65  1.00000
375.70  1.00000
375.75  1.00000
375.80  1.00000
375.85  1.00000
375.90  1.00000
375.95  1.00000
376.00  1.00000
376.05  1.00000
376.10  1.00000
376.15  1.00000
376.20  1.00000
376.25  1.00000
376.30  1.00000
376.35  1.00000
376.40  1.00000
376.45  1.00000
376.50  1.00000
376.55  1.00000
376.60  1.00000
376.65  1.00000
376.70  1.00000
376.75  1.00000
376.80  1.00000
376.85  1.00000
376.90  1.00000
376.95  1.00000
377.00  1.00000
377.05  1.00000
377.10  1.00000
377.15  1.00000
377.20  1.00000
377.25  1.00000
377.30  1.00000
377.35  1.00000
377.40  1.00000
377.45  1.00000
377.50  1.00000
377.55  1.00000
377.60  1.00000
377.65  1.00000
377.70  1.00000
377.75  1.00000
377.80  1.00000
377.85  1.00000
377.90  1.00000
377.95  1.00000
378.00  1.00000
378.05  1.00000
378.10  1.00000
378.15  1.00000
378.20  1.00000
378.25  1.00000
378.30  1.00000
378.35  1.00000
378.40  1.00000
378.45  1.00000
378.50  1.00000
378.55  1.00000
378.60  1.00000
378.65  1.00000
378.70  1.00000
378.75  1.00000
378.80  1.00000
378.85  1.00000
378.90  1.00000
378.95  1.00000
379.00  1.00000
379.05  1.00000
379.10  1.00000
379.15  1.00000
379.20  1.00000
379.25  1.00000
379.30  1.00000
379.35  1.00000
379.40  1.00000
379.45  1.00000
379.50  1.00000
379.55  1.00000
379.60  1.00000
379.65  1.00000
379.70  1.00000
379.75  1.00000
379.80  1.00000
379.85  1.00000
379.90  1.00000
379.95  1.00000
380.00  1.00000
380.05  1.00000
380.10  1.00000
380.15  1.00000
380.20  1.00000
380.25  1.00000
380.30  1.00000
380.35  1.00000
380.40  1.00000
380.45  1.00000
380.50  1.00000
380.55  1.00000
380.60  1.00000
380.65  1.00000
380.70  1.00000
380.75  1.00000
380.80  1.00000
380.85  1.00000
380.90  1.00000
380.95  1.00000
381.00  1.00000
381.05  1.00000
381.10  1.00000
381.15  1.00000
381.20  1.00000
381.25  1.00000
381.30  1.00000
381.35  1.00000
381.40  1.00000
381.45  1.00000
381.50  1.00000
381.55  1.00000
381.60  1.00000
381.65  1.00000
381.70  1.00000
381.75  1.00000
381.80  1.00000
381.85  1.00000
381.90  1.00000
381.95  1.00000
382.00  1.00000
382.05  1.00000
382.10  1.00000
382.15  1.00000
382.20  1.00000
382.25  1.00000
382.30  1.00000
382.35  1.00000
382.40  1.00000
382.45  1.00000
382.50  1.00000
382.55  1.00000
382.60  1.00000
382.65  1.00000
382.70  1.00000
382.75  1.00000
382.80  1.00000
382.85  1.00000
382.90  1.00000
382.95  1.00000
383.00  1.00000
383.05  1.00000
383.10  1.00000
383.15  1.00000
383.20  1.00000
383.25  1.00000
383.30  1.00000
383.35  1.00000
383.40  1.00000
383.45  1.00000
383.50  1.00000
383.55  1.00000
383.60  1.00000
383.65  1.00000
383.70  1.00000
383.75  1.00000
383.80  1.00000
383.85  1.00000
383.90  1.00000
383.95  1.00000
384.00  1.00000
384.05  1.00000
384.10  1.00000
384.15  1.00000
384.20  1.00000
384.25  1.00000
384.30  1.00000
384.35  1.00000
384.40  1.00000
384.45  1.00000
384.50  1.00000
384.55  1.00000
384.60  1.00000
384.65  1.00000
384.70  1.00000
384.75  1.00000
384.80  1.00000
384.85  1.00000
384.90  1.00000
384.95  1.00000
385.00  1.00000
385.05  1.00000
385.10  1.00000
385.15  1.00000
385.20  1.00000
385.25  1.00000
385.30  1.00000
385.35  1.00000
385.40  1.00000
385.45  1.00000
385.50  1.00000
385.55  1.00000
385.60  1.00000
385.65  1.00000
385.70  1.00000
385.75  1.00000
385.80  1.00000
385.85  1.00000
385.90  1.00000
385.95  1.00000
386.00  1.00000
386.05  1.00000
386.10  1.00000
386.15  1.00000
386.20  1.00000
386.25  1.00000
386.30  1.00000
386.35  1.00000
386.40  1.00000
386.45  1.00000
386.50  1.00000
386.55  1.00000
386.60  1.00000
386.65  1.00000
386.70  1.00000
386.75  1.00000
386.80  1.00000
386.85  1.00000
386.90  1.00000
386.95  1.00000
387.00  1.00000
387.05  1.00000
387.10  1.00000
387.15  1.00000
387.20  1.00000
387.25  1.00000
387.30  1.00000
387.35  1.00000
387.40  1.00000
387.45  1.00000
387.50  1.00000
387.55  1.00000
387.60  1.00000
387.65  1.00000
387.70  1.00000
387.75  1.00000
387.80  1.00000
387.85  1.00000
387.90  1.00000
387.95  1.00000
388.00  1.00000
388.05  1.00000
388.10  1.00000
388.15  1.00000
388.20  1.00000
388.25  1.00000
388.30  1.00000
388.35  1.00000
388.40  1.00000
388.45  1.00000
388.50  1.00000
388.55  1.00000
388.60  1.00000
388.65  1.00000
388.70  1.00000
388.75  1.00000
388.80  1.00000
388.85  1.00000
388.90  1.00000
388.95  1.00000
389.00  1.00000
389.05  1.00000
389.10  1.00000
389.15  1.00000
389.20  1.00000
389.25  1.00000
389.30  1.00000
389.35  1.00000
389.40  1.00000
389.45  1.00000
389.50  1.00000
389.55  1.00000
389.60  1.00000
389.65  1.00000
389.70  1.00000
389.75  1.00000
389.80  1.00000
389.85  1.00000
389.90  1.00000
389.95  1.00000
390.00  1.00000
390.05  1.00000
390.10  1.00000
390.15  1.00000
390.20  1.00000
390.25  1.00000
390.30  1.00000
390.35  1.00000
390.40  1.00000
390.45  1.00000
390.50  1.00000
390.55  1.00000
390.60  1.00000
390.65  1.00000
390.70  1.00000
390.75  1.00000
390.80  1.00000
390.85  1.00000
390.90  1.00000
390.95  1.00000
391.00  1.00000
391.05  1.00000
391.10  1.00000
391.15  1.00000
391.20  1.00000
391.25  1.00000
391.30  1.00000
391.35  1.00000
391.40  1.00000
391.45  1.00000
391.50  1.00000
391.55  1.00000
391.60  1.00000
391.65  1.00000
391.70  1.00000
391.75  1.00000
391.80  1.00000
391.85  1.00000
391.90  1.00000
391.95  1.00000
392.00  1.00000
392.05  1.00000
392.10  1.00000
392.15  1.00000
392.20  1.00000
392.25  1.00000
392.30  1.00000
392.35  1.00000
392.40  1.00000
392.45  1.00000
392.50  1.00000
392.55  1.00000
392.60  1.00000
392.65  1.00000
392.70  1.00000
392.75  1.00000
392.80  1.00000
392.85  1.00000
392.90  1.00000
392.95  1.00000
393.00  1.00000
393.05  1.00000
393.10  1.00000
393.15  1.00000
393.20  1.00000
393.25  1.00000
393.30  1.00000
393.35  1.00000
393.40  1.00000
393.45  1.00000
393.50  1.00000
393.55  1.00000
393.60  1.00000
393.65  1.00000
393.70  1.00000
393.75  1.00000
393.80  1.00000
393.85  1.00000
393.90  1.00000
393.95  1.00000
394.00  1.00000
394.05  1.00000
394.10  1.00000
394.15  1.00000
394.20  1.00000
394.25  1.00000
394.30  1.00000
394.35  1.00000
394.40  1.00000
394.45  1.00000
394.50  1.00000
394.55  1.00000
394.60  1.00000
394.65  1.00000
394.70  1.00000
394.75  1.00000
394.80  1.00000
394.85  1.00000
394.90  1.00000
394.95  1.00000
395.00  1.00000
395.05  1.00000
395.10  1.00000
395.15  1.00000
395.20  1.00000
395.25  1.00000
395.30  1.00000
395.35  1.00000
395.40  1.00000
395.45  1.00000
395.50  1.00000
395.55  1.00000
395.60  1.00000
395.65  1.00000
395.70  1.00000
395.75  1.00000
395.80  1.00000
395.85  1.00000
395.90  1.00000
395.95  1.00000
396.00  1.00000
396.05  1.00000
396.10  1.00000
396.15  1.00000
396.20  1.00000
396.25  1.00000
396.30  1.00000
396.35  1.00000
396.40  1.00000
396.45  1.00000
396.50  1.00000
396.55  1.00000
396.60  1.00000
396.65  1.00000
396.70  1.00000
396.75  1.00000
396.80  1.00000
396.85  1.00000
396.90  1.00000
396.95  1.00000
397.00  1.00000
397.05  1.00000
397.10  1.00000
397.15  1.00000
397.20  1.00000
397.25  1.00000
397.30  1.00000
397.35  1.00000
397.40  1.00000
397.45  1.00000
397.50  1.00000
397.55  1.00000
397.60  1.00000
397.65  1.00000
397.70  1.00000
397.75  1.00000
397.80  1.00000
397.85  1.00000
397.90  1.00000
397.95  1.00000
398.00  1.00000
398.05  1.00000
398.10  1.00000
398.15  1.00000
398.20  1.00000
398.25  1.00000
398.30  1.00000
398.35  1.00000
398.40  1.00000
398.45  1.00000
398.50  1.00000
398.55  1.00000
398.60  1.00000
398.65  1.00000
398.70  1.00000
398.75  1.00000
398.80  1.00000
398.85  1.00000
398.90  1.00000
398.95  1.00000
399.00  1.00000
399.05  1.00000
399.10  1.00000
399.15  1.00000
399.20  1.00000
399.25  1.00000
399.30  1.00000
399.35  1.00000
399.40  1.00000
399.45  1.00000
399.50  1.00000
399.55  1.00000
399.60  1.00000
399.65  1.00000
399.70  1.00000
399.75  1.00000
399.80  1.00000
399.85  1.00000
399.90  1.00000
399.95  1.00000
400.00  1.00000
400.05  1.00000
400.10  1.00000
400.15  1.00000
400.20  1.00000
400.25  1.00000
400.30  1.00000
400.35  1.00000
400.40  1.00000
400.45  1.00000
400.50  1.00000
400.55  1.00000
400.60  1.00000
400.65  1.00000
400.70  1.00000
400.75  1.00000
400.80  1.00000
400.85  1.00000
400.90  1.00000
400.95  1.00000
401.00  1.00000
401.05  1.00000
401.10  1.00000
401.15  1.00000
401.20  1.00000
401.25  1.00000
401.30  1.00000
401.35  1.00000
401.40  1.00000
401.45  1.00000
401.50  1.00000
401.55  1.00000
401.60  1.00000
401.65  1.00000
401.70  1.00000
401.75  1.00000
401.80  1.00000
401.85  1.00000
401.90  1.00000
401.95  1.00000
402.00  1.00000
402.05  1.00000
402.10  1.00000
402.15  1.00000
402.20  1.00000
402.25  1.00000
402.30  1.00000
402.35  1.00000
402.40  1.00000
402.45  1.00000
402.50  1.00000
402.55  1.00000
402.60  1.00000
402.65  1.00000
402.70  1.00000
402.75  1.00000
402.80  1.00000
402.85  1.00000
402.90  1.00000
402.95  1.00000
403.00  1.00000
403.05  1.00000
403.10  1.00000
403.15  1.00000
403.20  1.00000
403.25  1.00000
403.30  1.00000
403.35  1.00000
403.40  1.00000
403.45  1.00000
403.50  1.00000
403.55  1.00000
403.60  1.00000
403.65  1.00000
403.70  1.00000
403.75  1.00000
403.80  1.00000
403.85  1.00000
403.90  1.00000
403.95  1.00000
404.00  1.00000
404.05  1.00000
404.10  1.00000
404.15  1.00000
404.20  1.00000
404.25  1.00000
404.30  1.00000
404.35  1.00000
404.40  1.00000
404.45  1.00000
404.50  1.00000
404.55  1.00000
404.60  1.00000
404.65  1.00000
404.70  1.00000
404.75  1.00000
404.80  1.00000
404.85  1.00000
404.90  1.00000
404.95  1.00000
405.00  1.00000
405.05  1.00000
405.10  1.00000
405.15  1.00000
405.20  1.00000
405.25  1.00000
405.30  1.00000
405.35  1.00000
405.40  1.00000
405.45  1.00000
405.50  1.00000
405.55  1.00000
405.60  1.00000
405.65  1.00000
405.70  1.00000
405.75  1.00000
405.80  1.00000
405.85  1.00000
405.90  1.00000
405.95  1.00000
406.00  1.00000
406.05  1.00000
406.10  1.00000
406.15  1.00000
406.20  1.00000
406.25  1.00000
406.30  1.00000
406.35  1.00000
406.40  1.00000
406.45  1.00000
406.50  1.00000
406.55  1.00000
406.60  1.00000
406.65  1.00000
406.70  1.00000
406.75  1.00000
406.80  1.00000
406.85  1.00000
406.90  1.00000
406.95  1.00000
407.00  1.00000
407.05  1.00000
407.10  1.00000
407.15  1.00000
407.20  1.00000
407.25  1.00000
407.30  1.00000
407.35  1.00000
407.40  1.00000
407.45  1.00000
407.50  1.00000
407.55  1.00000
407.60  1.00000
407.65  1.00000
407.70  1.00000
407.75  1.00000
407.80  1.00000
407.85  1.00000
407.90  1.00000
407.95  1.00000
408.00  1.00000
408.05  1.00000
408.10  1.00000
408.15  1.00000
408.20  1.00000
408.25  1.00000
408.30  1.00000
408.35  1.00000
408.40  1.00000
408.45  1.00000
408.50  1.00000
408.55  1.00000
408.60  1.00000
408.65  1.00000
408.70  1.00000
408.75  1.00000
408.80  1.00000
408.85  1.00000
408.90  1.00000
408.95  1.00000
409.00  1.00000
409.05  1.00000
409.10  1.00000
409.15  1.00000
409.20  1.00000
409.25  1.00000
409.30  1.00000
409.35  1.00000
409.40  1.00000
409.45  1.00000
409.50  1.00000
409.55  1.00000
409.60  1.00000
409.65  1.00000
409.70  1.00000
409.75  1.00000
409.80  1.00000
409.85  1.00000
409.90  1.00000
409.95  1.00000
410.00  1.00000
410.05  1.00000
410.10  1.00000
410.15  1.00000
410.20  1.00000
410.25  1.00000
410.30  1.00000
410.35  1.00000
410.40  1.00000
410.45  1.00000
410.50  1.00000
410.55  1.00000
410.60  1.00000
410.65  1.00000
410.70  1.00000
410.75  1.00000
410.80  1.00000
410.85  1.00000
410.90  1.00000
410.95  1.00000
411.00  1.00000
411.05  1.00000
411.10  1.00000
411.15  1.00000
411.20  1.00000
411.25  1.00000
411.30  1.00000
411.35  1.00000
411.40  1.00000
411.45  1.00000
411.50  1.00000
411.55  1.00000
411.60  1.00000
411.65  1.00000
411.70  1.00000
411.75  1.00000
411.80  1.00000
411.85  1.00000
411.90  1.00000
411.95  1.00000
412.00  1.00000
412.05  1.00000
412.10  1.00000
412.15  1.00000
412.20  1.00000
412.25  1.00000
412.30  1.00000
412.35  1.00000
412.40  1.00000
412.45  1.00000
412.50  1.00000
412.55  1.00000
412.60  1.00000
412.65  1.00000
412.70  1.00000
412.75  1.00000
412.80  1.00000
412.85  1.00000
412.90  1.00000
412.95  1.00000
413.00  1.00000
413.05  1.00000
413.10  1.00000
413.15  1.00000
413.20  1.00000
413.25  1.00000
413.30  1.00000
413.35  1.00000
413.40  1.00000
413.45  1.00000
413.50  1.00000
413.55  1.00000
413.60  1.00000
413.65  1.00000
413.70  1.00000
413.75  1.00000
413.80  1.00000
413.85  1.00000
413.90  1.00000
413.95  1.00000
414.00  1.00000
414.05  1.00000
414.10  1.00000
414.15  1.00000
414.20  1.00000
414.25  1.00000
414.30  1.00000
414.35  1.00000
414.40  1.00000
414.45  1.00000
414.50  1.00000
414.55  1.00000
414.60  1.00000
414.65  1.00000
414.70  1.00000
414.75  1.00000
414.80  1.00000
414.85  1.00000
414.90  1.00000
414.95  1.00000
415.00  1.00000
415.05  1.00000
415.10  1.00000
415.15  1.00000
415.20  1.00000
415.25  1.00000
415.30  1.00000
415.35  1.00000
415.40  1.00000
415.45  1.00000
415.50  1.00000
415.55  1.00000
415.60  1.00000
415.65  1.00000
415.70  1.00000
415.75  1.00000
415.80  1.00000
415.85  1.00000
415.90  1.00000
415.95  1.00000
416.00  1.00000
416.05  1.00000
416.10  1.00000
416.15  1.00000
416.20  1.00000
416.25  1.00000
416.30  1.00000
416.35  1.00000
416.40  1.00000
416.45  1.00000
416.50  1.00000
416.55  1.00000
416.60  1.00000
416.65  1.00000
416.70  1.00000
416.75  1.00000
416.80  1.00000
416.85  1.00000
416.90  1.00000
416.95  1.00000
417.00  1.00000
417.05  1.00000
417.10  1.00000
417.15  1.00000
417.20  1.00000
417.25  1.00000
417.30  1.00000
417.35  1.00000
417.40  1.00000
417.45  1.00000
417.50  1.00000
417.55  1.00000
417.60  1.00000
417.65  1.00000
417.70  1.00000
417.75  1.00000
417.80  1.00000
417.85  1.00000
417.90  1.00000
417.95  1.00000
418.00  1.00000
418.05  1.00000
418.10  1.00000
418.15  1.00000
418.20  1.00000
418.25  1.00000
418.30  1.00000
418.35  1.00000
418.40  1.00000
418.45  1.00000
418.50  1.00000
418.55  1.00000
418.60  1.00000
418.65  1.00000
418.70  1.00000
418.75  1.00000
418.80  1.00000
418.85  1.00000
418.90  1.00000
418.95  1.00000
419.00  1.00000
419.05  1.00000
419.10  1.00000
419.15  1.00000
419.20  1.00000
419.25  1.00000
419.30  1.00000
419.35  1.00000
419.40  1.00000
419.45  1.00000
419.50  1.00000
419.55  1.00000
419.60  1.00000
419.65  1.00000
419.70  1.00000
419.75  1.00000
419.80  1.00000
419.85  1.00000
419.90  1.00000
419.95  1.00000
